File: Lab2/data/aSi_T.csv
Transmission thin film,
Wavelength (nm),%T
2500,76.6894
2498,76.4506
2496,76.0801
2494,75.7608
2492,75.3791
2490,75.2086
2488,74.7449
2486,74.4218
2484,74.1371
2482,73.8444
2480,73.4832
2478,73.15
2476,72.8663
2474,72.3964
2472,71.9407
2470,71.6842
2468,71.3258
2466,71.0774
2464,70.6707
2462,70.2503
2460,69.8973
2458,69.5596
2456,69.3037
2454,68.762
2452,68.4748
2450,68.0707
2448,67.7235
2446,67.3023
2444,67.0387
2442,66.6183
2440,66.2172
2438,65.904
2436,65.5888
2434,65.0692
2432,64.8176
2430,64.3603
2428,64.0517
2426,63.7068
2424,63.3359
2422,62.9778
2420,62.5555
2418,62.2271
2416,61.9185
2414,61.6194
2412,61.225
2410,60.914
2408,60.5126
2406,60.2641
2404,59.9275
2402,59.5326
2400,59.2398
2398,58.9033
2396,58.5018
2394,58.2584
2392,58.0053
2390,57.6225
2388,57.3156
2386,56.9924
2384,56.8053
2382,56.4888
2380,56.0766
2378,55.8378
2376,55.5687
2374,55.2889
2372,54.9832
2370,54.6503
2368,54.3856
2366,54.0868
2364,53.7851
2362,53.5601
2360,53.2754
2358,53.0168
2356,52.7298
2354,52.4486
2352,52.2165
2350,51.9056
2348,51.6578
2346,51.4087
2344,51.2409
2342,50.9723
2340,50.694
2338,50.3522
2336,50.1859
2334,49.9072
2332,49.6848
2330,49.4473
2328,49.1973
2326,48.9961
2324,48.694
2322,48.4758
2320,48.2277
2318,47.9644
2316,47.8251
2314,47.5158
2312,47.3546
2310,47.2746
2308,46.9287
2306,46.6653
2304,46.5764
2302,46.4101
2300,46.0773
2298,46.0093
2296,45.8585
2294,45.576
2292,45.4256
2290,45.2419
2288,45.1205
2286,45.0465
2284,44.7058
2282,44.7061
2280,44.4873
2278,44.4797
2276,44.2944
2274,44.0625
2272,43.9355
2270,43.8454
2268,43.7767
2266,43.657
2264,43.4691
2262,43.4038
2260,43.2768
2258,43.1147
2256,43.0234
2254,42.9091
2252,42.8259
2250,42.7443
2248,42.6629
2246,42.6182
2244,42.5522
2242,42.4642
2240,42.2272
2238,42.2789
2236,42.2544
2234,42.2084
2232,42.1175
2230,42.059
2228,42.0544
2226,41.9986
2224,41.9961
2222,41.9529
2220,41.9793
2218,41.9336
2216,41.96
2214,41.8812
2212,41.9844
2210,41.9439
2208,42.0794
2206,41.9667
2204,42.0091
2202,41.9239
2200,42.018
2198,42.1228
2196,42.1605
2194,42.2112
2192,42.284
2190,42.3526
2188,42.38
2186,42.4679
2184,42.5407
2182,42.7103
2180,42.7734
2178,42.8079
2176,42.8333
2174,43.0558
2172,43.1196
2170,43.1547
2168,43.2842
2166,43.437
2164,43.5999
2162,43.6716
2160,43.8998
2158,44.0304
2156,44.2672
2154,44.3734
2152,44.575
2150,44.7342
2148,44.9037
2146,45.0111
2144,45.2971
2142,45.5835
2140,45.7823
2138,46.0185
2136,46.2343
2134,46.4425
2132,46.6965
2130,46.971
2128,47.2029
2126,47.4927
2124,47.7357
2122,48.024
2120,48.4158
2118,48.6583
2116,49.0221
2114,49.3442
2112,49.6088
2110,49.9001
2108,50.2351
2106,50.5728
2104,50.9042
2102,51.3821
2100,51.7604
2098,52.0049
2096,52.5695
2094,52.8782
2092,53.2647
2090,53.6384
2088,54.1568
2086,54.5911
2084,55.0143
2082,55.4621
2080,55.9279
2078,56.355
2076,56.8468
2074,57.3487
2072,57.8406
2070,58.3466
2068,58.8937
2066,59.503
2064,59.9862
2062,60.4888
2060,61.0797
2058,61.5401
2056,62.0648
2054,62.8408
2052,63.3169
2050,63.868
2048,64.5533
2046,65.0203
2044,65.6456
2042,66.3004
2040,66.8696
2038,67.3977
2036,67.9058
2034,68.7985
2032,69.3136
2030,69.8141
2028,70.4893
2026,71.0339
2024,71.6678
2022,72.3845
2020,73.0431
2018,73.6209
2016,74.1988
2014,74.8559
2012,75.3882
2010,76.0045
2008,76.6117
2006,77.1047
2004,77.7749
2002,78.1319
2000,78.7356
1998,79.4711
1996,80.026
1994,80.6031
1992,80.8986
1990,81.3776
1988,81.885
1986,82.3177
1984,82.7232
1982,82.9687
1980,83.3885
1978,83.7737
1976,83.9389
1974,84.3016
1972,84.5706
1970,84.7292
1968,84.9311
1966,85.1977
1964,85.2378
1962,85.4299
1960,85.5476
1958,85.5481
1956,85.49263
1954,85.6385
1952,85.5935
1950,85.4457
1948,85.3023
1946,85.2749
1944,85.219
1942,84.9597
1940,84.8471
1938,84.5954
1936,84.3074
1934,84.0973
1932,83.6615
1930,83.4439
1928,83.0749
1926,82.737
1924,82.3879
1922,81.9728
1920,81.4363
1918,81.1014
1916,80.6501
1914,80.1805
1912,79.5769
1910,79.2048
1908,78.6502
1906,78.0484
1904,77.6766
1902,77.0465
1900,76.4425
1898,75.8458
1896,75.2985
1894,74.6588
1892,74.1003
1890,73.3449
1888,72.8632
1886,72.1583
1884,71.5796
1882,71.061
1880,70.3583
1878,69.727
1876,69.1024
1874,68.5206
1872,67.9078
1870,67.2697
1868,66.6777
1866,66.0356
1864,65.3789
1862,64.8061
1860,64.1626
1858,63.5628
1856,63.0427
1854,62.3556
1852,61.7174
1850,61.2134
1848,60.5382
1846,60.0725
1844,59.4641
1842,58.8365
1840,58.2786
1838,57.7454
1836,57.2537
1834,56.6842
1832,56.1929
1830,55.6284
1828,55.1465
1826,54.6538
1824,54.29
1822,53.686
1820,53.2603
1818,52.7591
1816,52.3135
1814,51.907
1812,51.4461
1810,51.0462
1808,50.6423
1806,50.1893
1804,49.8724
1802,49.4594
1800,49.0571
1798,48.7699
1796,48.3457
1794,47.9493
1792,47.6985
1790,47.3917
1788,47.1193
1786,46.784
1784,46.5659
1782,46.1601
1780,45.9296
1778,45.7757
1776,45.5123
1774,45.2375
1772,44.987
1770,44.7952
1768,44.6572
1766,44.4976
1764,44.2613
1762,44.0319
1760,43.8546
1758,43.7967
1756,43.6644
1754,43.5503
1752,43.3591
1750,43.3845
1748,43.3024
1746,43.2007
1744,43.1606
1742,43.1513
1740,43.0461
1738,43.0407
1736,43.0519
1734,43.02528
1732,43.0315
1730,43.008
1728,43.1443
1726,43.1733
1724,43.2355
1722,43.3369
1720,43.5056
1718,43.5222
1716,43.7617
1714,43.9536
1712,44.151
1710,44.2451
1708,44.4607
1706,44.5385
1704,44.7955
1702,45.2082
1700,45.3281
1698,45.6248
1696,45.8887
1694,46.2821
1692,46.5662
1690,46.8978
1688,47.2706
1686,47.7182
1684,48.0904
1682,48.5792
1680,48.9288
1678,49.5439
1676,49.9595
1674,50.5737
1672,51.0972
1670,51.6411
1668,52.2179
1666,52.7945
1664,53.3804
1662,54.1059
1660,54.7924
1658,55.4262
1656,56.1795
1654,56.9694
1652,57.6974
1650,58.5256
1648,59.2509
1646,60.13834
1644,61.0371
1642,61.9416
1640,62.7404
1638,63.6916
1636,64.6016
1634,65.483
1632,66.3783
1630,67.4108
1628,68.292
1626,69.2315
1624,70.2133
1622,71.1485
1620,72.1105
1618,73.0026
1616,73.9592
1614,74.882
1612,75.6731
1610,76.5172
1608,77.3529
1606,78.1549
1604,78.9209
1602,79.5663
1600,80.1403
1598,80.8798
1596,81.3806
1594,81.8735
1592,82.4236
1590,82.8143
1588,83.161
1586,83.399
1584,83.5683
1582,83.7567
1580,83.7479
1578,83.7559
1576,83.7707
1574,83.5508
1572,83.4686
1570,83.1873
1568,83.0008
1566,82.4662
1564,82.1317
1562,81.6405
1560,81.0712
1558,80.643
1556,79.9908
1554,79.361
1552,78.6586
1550,77.9672
1548,77.1985
1546,76.453
1544,75.7037
1542,74.8849
1540,73.9658
1538,73.1511
1536,72.2312
1534,71.4921
1532,70.431
1530,69.5875
1528,68.704
1526,67.7899
1524,66.909
1522,66.0314
1520,65.1722
1518,64.2348
1516,63.3229
1514,62.5743
1512,61.7326
1510,60.7863
1508,60.0358
1506,59.2236
1504,58.4276
1502,57.5063
1500,56.9286
1498,56.0349
1496,55.3794
1494,54.6659
1492,53.9293
1490,53.291
1488,52.7036
1486,52.07
1484,51.3396
1482,50.7902
1480,50.346
1478,49.7474
1476,49.1668
1474,48.6269
1472,48.0999
1470,47.6752
1468,47.2838
1466,46.8956
1464,46.5262
1462,46.2275
1460,45.7825
1458,45.5454
1456,45.3606
1454,44.9363
1452,44.6207
1450,44.4451
1448,44.2476
1446,44.0896
1444,43.9319
1442,43.7787
1440,43.6525
1438,43.6089
1436,43.5989
1434,43.5738
1432,43.5547
1430,43.6128
1428,43.6575
1426,43.8207
1424,43.8167
1422,44.0345
1420,44.2665
1418,44.4531
1416,44.7669
1414,44.9859
1412,45.3524
1410,45.7633
1408,46.1368
1406,46.6568
1404,47.158
1402,47.7146
1400,48.2202
1398,48.9789
1396,49.6182
1394,50.35
1392,51.1459
1390,51.9476
1388,52.909
1386,53.7576
1384,54.6775
1382,55.7545
1380,56.8197
1378,57.9389
1376,59.1327
1374,60.2396
1372,61.4539
1370,62.7781
1368,64.0575
1366,65.3216
1364,66.7716
1362,68.1018
1360,69.3814
1358,70.6383
1356,72.0425
1354,73.2896
1352,74.4417
1350,75.6294
1348,76.7092
1346,77.7685
1344,78.782
1342,79.4758
1340,80.1357
1338,80.8254
1336,81.3863
1334,81.6407
1332,81.9726
1330,82.1387
1328,82.1996
1326,82.0296
1324,81.7062
1322,81.4348
1320,80.8869
1318,80.2671
1316,79.6442
1314,78.7988
1312,77.9955
1310,76.9914
1308,76.1219
1306,74.9669
1304,73.9762
1302,72.9083
1300,71.6278
1298,70.5413
1296,69.2624
1294,68.1662
1292,66.956
1290,65.7091
1288,64.5671
1286,63.2776
1284,62.2929
1282,61.0185
1280,59.9127
1278,58.8076
1276,57.7802
1274,56.7252
1272,55.7798
1270,54.8181
1268,53.8254
1266,52.9475
1264,52.1924
1262,51.3091
1260,50.5917
1258,49.781
1256,49.1704
1254,48.4515
1252,47.8477
1250,47.2463
1248,46.7956
1246,46.233
1244,45.8154
1242,45.4997
1240,45.0677
1238,44.8394
1236,44.5855
1234,44.4158
1232,44.1499
1230,44.128
1228,44.0336
1226,44.099
1224,44.0889
1222,44.251
1220,44.4115
1218,44.7134
1216,45.015
1214,45.3943
1212,45.8511
1210,46.4407
1208,46.9483
1206,47.5413
1204,48.3968
1202,49.252
1200,50.1026
1198,50.9897
1196,52.1432
1194,53.1326
1192,54.5069
1190,55.7837
1188,57.1451
1186,58.8616
1184,60.3641
1182,62.1621
1180,63.7323
1178,65.5944
1176,67.2677
1174,69.0363
1172,70.7587
1170,72.4086
1168,73.9505
1166,75.3313
1164,76.7278
1162,77.9007
1160,78.7648
1158,79.5798
1156,79.9986
1154,80.3996
1152,80.3808
1150,80.2597
1148,79.8636
1146,79.3606
1144,78.4723
1142,77.6923
1140,76.4357
1138,75.3722
1136,74.1295
1134,72.6262
1132,71.3064
1130,69.841
1128,68.1462
1126,66.6432
1124,65.1495
1122,63.7013
1120,62.2192
1118,60.7357
1116,59.3107
1114,58.0248
1112,56.5184
1110,55.346
1108,54.1632
1106,53.0152
1104,51.8282
1102,50.8333
1100,49.9193
1098,49.0118
1096,48.066
1094,47.3811
1092,46.7518
1090,46.1303
1088,45.6388
1086,45.1391
1084,44.7933
1082,44.5132
1080,44.3635
1078,44.2319
1076,44.2791
1074,44.3723
1072,44.6477
1070,44.9511
1068,45.3547
1066,45.8426
1064,46.5251
1062,47.3607
1060,48.4025
1058,49.429
1056,50.7578
1054,52.1143
1052,53.7014
1050,55.3653
1048,57.2958
1046,59.3769
1044,61.4271
1042,63.6857
1040,65.8711
1038,68.2055
1036,70.3665
1034,72.3518
1032,74.4173
1030,75.91
1028,77.1772
1026,78.1649
1024,78.8728
1022,79.1235
1020,78.9927
1018,78.2438
1016,77.5271
1014,76.3466
1012,75.1
1010,73.3916
1008,71.7992
1006,70.0134
1004,68.0977
1002,66.3365
1000,64.3645
998,62.4184
996,60.5664
994,58.7057
992,56.9557
990,55.3635
988,53.8373
986,52.3579
984,51.0326
982,49.7544
980,48.6585
978,47.6091
976,46.6728
974,45.9187
972,45.2708
970,44.7636
968,44.3374
966,44.0968
964,44.0665
962,44.1521
960,44.329
958,44.8416
956,45.4933
954,46.2863
952,47.2449
950,48.6512
948,50.1253
946,51.9514
944,53.9465
942,56.3543
940,58.7656
938,61.4749
936,64.2338
934,67.0532
932,69.6939
930,72.1088
928,74.2401
926,75.8081
924,76.8872
922,77.3751
920,77.2436
918,76.7298
916,75.3972
914,73.934
912,72.1464
910,70.1712
908,67.7764
906,65.5635
904,63.2431
902,60.8995
900,58.7288
898,56.7122
896,54.6961
894,52.8878
892,51.1942
890,49.6957
888,48.3836
886,47.1161
884,46.1811
882,45.3387
880,44.7815
878,44.4854
876,44.2591
874,44.3759
872,44.6284
870,45.2956
868,46.1722
866,47.4701
864,49.0924
862,51.0551
860,53.3392
858,55.8304
856,58.6254
854,61.5031
852,64.3193
850,67.0495
848,69.2867
846,71.1515
844,72.4592
842,73.1531
840,73.1483
838,72.5675
836,71.3298
834,69.9504
832,68.0125
830,65.9157
828,63.693
826,61.187
824,58.7785
822,56.46
820,54.3549
818,46.9592
816,45.408
814,44.1495
812,43.1469
810,42.4486
808,42.0876
806,42.0794
804,42.472
802,43.3273
800,44.6743
798,46.339
796,48.7581
794,51.802
792,55.4088
790,59.4376
788,63.5789
786,67.3242
784,70.2678
782,71.9626
780,72.2391
778,71.225
776,69.1419
774,66.3539
772,63.1818
770,59.844
768,56.6077
766,53.5348
764,50.7213
762,48.198
760,46.0216
758,44.1962
756,42.7457
754,41.7362
752,41.1759
750,41.1401
748,41.7002
746,42.9495
744,44.9756
742,47.8317
740,51.5006
738,55.7673
736,60.1202
734,63.8211
732,66.0953
730,66.5051
728,65.1548
726,62.4642
724,59.0184
722,55.2885
720,51.6028
718,48.157
716,45.0789
714,42.4309
712,40.2533
710,38.5888
708,37.4605
706,36.9494
704,37.1316
702,38.0793
700,39.8312
698,42.3192
696,45.2621
694,48.0548
692,49.8792
690,50.1688
688,48.8364
686,46.3088
684,43.1399
682,39.817
680,36.6319
678,33.8012
676,31.3819
674,29.4212
672,27.9401
670,26.9527
668,26.4683
666,26.4608
664,26.8431
662,27.4179
660,27.8749
658,27.8579
656,27.172
654,25.836
652,24.0809
650,22.1479
648,20.255
646,18.5239
644,17.0055
642,15.7536
640,14.741
638,13.9527
636,13.3321
634,12.823
632,12.3314
630,11.7823
628,11.125
626,10.3492
624,9.50419
622,8.6414
620,7.81833
618,7.05575
616,6.38168
614,5.78869
612,5.27243
610,4.81303
608,4.39845
606,4.01044
604,3.64084
602,3.28427
600,2.94301
598,2.62288
596,2.32681
594,2.05954
592,1.82025
590,1.60868
588,1.42227
586,1.25652
584,1.10797
582,0.977357
580,0.860738
578,0.756638
576,0.66569
574,0.586043
572,0.516625
570,0.457007
568,0.40533
566,0.361888
564,0.324332
562,0.292158
560,0.265151
558,0.241699
556,0.222181
554,0.20545
552,0.191865
550,0.180304
548,0.170263
546,0.161782
544,0.154443
542,0.148568
540,0.143142
538,0.138865
536,0.134914
534,0.131282
532,0.128177
530,0.12542
528,0.123025
526,0.120479
524,0.118233
522,0.116048
520,0.113959
518,0.11262
516,0.111006
514,0.108834
512,0.107479
510,0.105596
508,0.103861
506,0.102501
504,0.101311
502,0.09995722
500,0.0985546
498,0.0973717
496,0.0959117
494,0.0941094
492,0.09333539
490,0.0925133
488,0.0908601
486,0.0896687
484,0.0886061
482,0.0873411
480,0.0864895
478,0.0855731
476,0.0841849
474,0.0832781
472,0.082286
470,0.08139845
468,0.0802328
466,0.0793558
464,0.0783341
462,0.0778256
460,0.0768369
458,0.0758332
456,0.0755177
454,0.074345
452,0.07357277
450,0.0727907
448,0.07190378
446,0.0710484
444,0.0704748
442,0.0697018
440,0.0686634
438,0.068031
436,0.0676415
434,0.0669164
432,0.0659072
430,0.0652308
428,0.0644775
426,0.0641104
424,0.0633876
422,0.0623008
420,0.0620913
418,0.0615204
416,0.0609334
414,0.0605407
412,0.0596339
410,0.0590073
408,0.0582446
406,0.0578184
404,0.0575152
402,0.0572755
400,0.0560428
398,0.0559571
396,0.0553639
394,0.054565
392,0.0540575
390,0.0534498
388,0.052799
386,0.052231
384,0.0522658
382,0.05167263
380,0.0512475
378,0.0507899
376,0.0500643
374,0.0501181
372,0.0495722
370,0.0487327
368,0.0482769
366,0.048376
364,0.0476081
362,0.0472407
360,0.0465436
358,0.046315
356,0.0455308
354,0.0452775
352,0.0450039
350,0.0442123