File: Lab2/data/aSi_Abs.csv
Absorbance  thin film,
Wavelength (nm),Abs
750,0.386976
749,0.384766
748,0.380868
747,0.375143
746,0.367771
745,0.358593
744,0.347556
743,0.334829
742,0.32049
741,0.304921
740,0.288148
739,0.270756
738,0.253318
737,0.236255
736,0.220451
735,0.20615
734,0.1942949
733,0.185132
732,0.179035
731,0.176153
730,0.176387
729,0.179563
728,0.185439
727,0.193633
726,0.203824
725,0.215617
724,0.228657
723,0.24259
722,0.257239
721,0.272364
720,0.287587
719,0.302836
718,0.317743
717,0.332564
716,0.346767
715,0.360335
714,0.373193
713,0.385195
712,0.396258
711,0.406146
710,0.414719
709,0.421996
708,0.427581
707,0.431433
706,0.433387
705,0.43331
704,0.431038
703,0.426588
702,0.419879
701,0.410913
700,0.400048
699,0.387277
698,0.373283
697,0.358554
696,0.343801
695,0.329991
694,0.317688
693,0.30796
692,0.30135
691,0.298285
690,0.298871
689,0.303092
688,0.310627
687,0.320941
686,0.333833
685,0.34861
684,0.364851
683,0.382139
682,0.399906
681,0.418192
680,0.436386
679,0.454222
678,0.471562
677,0.488275
676,0.504061
675,0.518795
674,0.532213
673,0.544189
672,0.554625
671,0.563287
670,0.570165
669,0.57496
668,0.577862
667,0.578728
666,0.57776
665,0.575142
664,0.571264
663,0.566622
662,0.561778
661,0.557539
660,0.554485
659,0.553364
658,0.55464
657,0.558649
656,0.565434
655,0.575133
654,0.587369
653,0.60183
652,0.618116
651,0.635793
650,0.654554
649,0.673922
648,0.693567
647,0.713203
646,0.732657
645,0.751621
644,0.769779
643,0.78687
642,0.803059
641,0.81812
640,0.831933
639,0.84451
638,0.85577
637,0.866038
636,0.875367
635,0.883973
634,0.892225
633,0.900419
632,0.909055
631,0.918371
630,0.928714
629,0.940461
628,0.953707
627,0.968579
626,0.985034
625,1.00297
624,1.02213
623,1.04241
622,1.06351
621,1.08523
620,1.1071
619,1.12951
618,1.15175
617,1.17369
616,1.19541
615,1.21687
614,1.23779
613,1.25833
612,1.27836
611,1.29825
610,1.31786
609,1.33739
608,1.35706
607,1.37672
606,1.39706
605,1.41776
604,1.43916
603,1.46111
602,1.48382
601,1.50733
600,1.5315
599,1.55617
598,1.58156
597,1.60744
596,1.63362
595,1.66021
594,1.68659
593,1.71348
592,1.74033
591,1.76705
590,1.79386
589,1.82068
588,1.84757
587,1.87452
586,1.90124
585,1.92839
584,1.95565
583,1.98295
582,2.01038
581,2.0378
580,2.06562
579,2.09338
578,2.12126
577,2.14911
576,2.17697
575,2.20489
574,2.2325
573,2.25969
572,2.28696
571,2.3138
570,2.34023
569,2.36626
568,2.39168
567,2.41706
566,2.44183
565,2.46575
564,2.48926
563,2.51201
562,2.53434
561,2.55584
560,2.57662
559,2.59678
558,2.61623
557,2.63495
556,2.65284
555,2.66974
554,2.68625
553,2.70183
552,2.71653
551,2.73073
550,2.74404
549,2.75641
548,2.76865
547,2.77977
546,2.79023
545,2.80042
544,2.81012
543,2.8196
542,2.82733
541,2.83537
540,2.84306
539,2.85017
538,2.85683
537,2.86321
536,2.86933
535,2.87512
534,2.88059
533,2.88614
532,2.89096
531,2.89615
530,2.9006
529,2.90506
528,2.90983
527,2.91382
526,2.918
525,2.92197
524,2.92579
523,2.92971
522,2.93351
521,2.93723
520,2.94094
519,2.94398
518,2.94784
517,2.95129
516,2.95463
515,2.95807
514,2.96128
513,2.96452
512,2.9679
511,2.97098
510,2.97453
509,2.97751
508,2.9809
507,2.98366
506,2.98687
505,2.98969
504,2.99311
503,2.99611
502,2.99952
501,3.0023
500,3.00546
499,3.00847
498,3.01109
497,3.01413
496,3.0174
495,3.01994
494,3.02334
493,3.02563
492,3.02896
491,3.03145
490,3.03447
489,3.037
488,3.04015
487,3.04272
486,3.0457
485,3.04871
484,3.05113
483,3.05412
482,3.0565
481,3.05968
480,3.06237
479,3.06456
478,3.06745
477,3.07027
476,3.07275
475,3.07489
474,3.07799
473,3.08047
472,3.0832
471,3.08598
470,3.08803
469,3.09064
468,3.09354
467,3.09591
466,3.09846
465,3.10097
464,3.10377
463,3.10592
462,3.10836
461,3.11128
460,3.11346
459,3.11615
458,3.11884
457,3.12082
456,3.12341
455,3.12571
454,3.1284
453,3.13022
452,3.13281
451,3.13568
450,3.13799