File: Lab2/data/aSi_R.csv
Reflectance thin film,
Wavelength (nm),%R
2400,45.0988
2398,45.4728
2396,45.8249
2394,46.2468
2392,46.5559
2390,46.8831
2388,47.2572
2386,47.5761
2384,47.9255
2382,48.251
2380,48.5453
2378,48.8774
2376,49.1925
2374,49.504
2372,49.7774
2370,50.0855
2368,50.3645
2366,50.612
2364,50.9316
2362,51.2274
2360,51.4652
2358,51.7152
2356,51.9626
2354,52.274
2352,52.4759
2350,52.7372
2348,52.9755
2346,53.2609
2344,53.4343
2342,53.6903
2340,53.8838
2338,54.1088
2336,54.3344
2334,54.5662
2332,54.7729
2330,55.0336
2328,55.2234
2326,55.3979
2324,55.5574
2322,55.8169
2320,55.9394
2318,56.112
2316,56.2869
2314,56.4288
2312,56.6165
2310,56.7655
2308,56.9241
2306,57.1459
2304,57.206
2302,57.3784
2300,57.4948
2298,57.6873
2296,57.7447
2294,57.8818
2292,57.9602
2290,58.0853
2288,58.0736
2286,58.1297
2284,58.1049
2282,58.1636
2280,58.2354
2278,58.2483
2276,58.3824
2274,58.4611
2272,58.4882
2270,58.6195
2268,58.6728
2266,58.795
2264,58.8998
2262,58.9595
2260,59.0328
2258,59.0929
2256,59.2248
2254,59.2987
2252,59.3654
2250,59.4607
2248,59.5698
2246,59.5713
2244,59.6491
2242,59.6946
2240,59.7849
2238,59.8137
2236,59.8488
2234,59.8416
2232,59.894
2230,59.8606
2228,59.8407
2226,59.9122
2224,59.875
2222,59.9092
2220,59.7718
2218,59.7278
2216,59.7399
2214,59.6922
2212,59.6249
2210,59.5638
2208,59.4904
2206,59.4114
2204,59.3328
2202,59.2767
2200,59.1412
2198,59.1016
2196,58.9724
2194,58.9028
2192,58.8582
2190,58.7336
2188,58.6131
2186,58.5109
2184,58.4068
2182,58.3098
2180,58.1335
2178,58.0562
2176,57.9109
2174,57.7373
2172,57.6095
2170,57.394
2168,57.1989
2166,57.0936
2164,56.8565
2162,56.714
2160,56.4593
2158,56.2721
2156,56.0844
2154,55.917
2152,55.6395
2150,55.4288
2148,55.1494
2146,54.9236
2144,54.6927
2142,54.4738
2140,54.1723
2138,53.8073
2136,53.5942
2134,53.3088
2132,53.005
2130,52.717
2128,52.401
2126,52.0406
2124,51.6893
2122,51.3952
2120,51.0455
2118,50.6585
2116,50.356
2114,49.9026
2112,49.5373
2110,49.1532
2108,48.7318
2106,48.2915
2104,47.842
2102,47.4363
2100,46.9805
2098,46.5947
2096,46.0838
2094,45.6226
2092,45.1116
2090,44.6575
2088,44.1193
2086,43.5912
2084,43.093
2082,42.589
2080,42.0017
2078,41.5006
2076,40.9456
2074,40.3902
2072,39.8229
2070,39.1932
2068,38.5937
2066,38.0137
2064,37.3558
2062,36.8143
2060,36.1141
2058,35.5386
2056,34.8856
2054,34.254
2052,33.5636
2050,32.8919
2048,32.2572
2046,31.5708
2044,30.884
2042,30.2489
2040,29.5226
2038,28.8863
2036,28.1723
2034,27.4904
2032,26.7904
2030,26.131
2028,25.3916
2026,24.795
2024,24.0655
2022,23.4043
2020,22.714
2018,22.0576
2016,21.3839
2014,20.8054
2012,20.1703
2010,19.5647
2008,18.9027
2006,18.3416
2004,17.8263
2002,17.2834
2000,16.753
1998,16.3745
1996,15.8757
1994,15.3848
1992,14.9775
1990,14.5589
1988,14.1419
1986,13.7968
1984,13.5146
1982,13.1815
1980,12.9733
1978,12.7157
1976,12.4998
1974,12.39
1972,12.1894
1970,12.1088
1968,12.0889
1966,12.0036
1964,11.9859
1962,12.0689
1960,12.1711
1958,12.2512
1956,12.4134
1954,12.599
1952,12.7773
1950,12.9993
1948,13.3007
1946,13.6335
1944,13.977
1942,14.3038
1940,14.7702
1938,15.2027
1936,15.6277
1934,16.1354
1932,16.6409
1930,17.1514
1928,17.6851
1926,18.269
1924,18.8673
1922,19.4991
1920,20.1034
1918,20.7445
1916,21.3936
1914,22.0785
1912,22.8291
1910,23.5231
1908,24.2113
1906,24.9354
1904,25.7316
1902,26.4319
1900,27.1654
1898,27.9305
1896,28.6908
1894,29.4004
1892,30.1876
1890,30.9201
1888,31.6417
1886,32.3889
1884,33.1389
1882,33.8668
1880,34.4894
1878,35.2085
1876,35.906
1874,36.6709
1872,37.4205
1870,38.1005
1868,38.8809
1866,39.6247
1864,40.2683
1862,40.9204
1860,41.5191
1858,42.1816
1856,42.8199
1854,43.4212
1852,44.0539
1850,44.6658
1848,45.303
1846,45.9034
1844,46.5037
1842,47.0672
1840,47.5668
1838,48.1779
1836,48.7397
1834,49.2193
1832,49.7382
1830,50.2369
1828,50.7384
1826,51.1739
1824,51.6
1822,52.0493
1820,52.4938
1818,52.925
1816,53.3252
1814,53.712
1812,54.0819
1810,54.4411
1808,54.8665
1806,55.1633
1804,55.4431
1802,55.8207
1800,56.1121
1798,56.4699
1796,56.658
1794,56.9892
1792,57.2119
1790,57.463
1788,57.7246
1786,57.9605
1784,58.1768
1782,58.3914
1780,58.5897
1778,58.6753
1776,58.8346
1774,59.0211
1772,59.1753
1770,59.2479
1768,59.3915
1766,59.4771
1764,59.5959
1762,59.6561
1760,59.7262
1758,59.7706
1756,59.8463
1754,59.8303
1752,59.8731
1750,59.8864
1748,59.8096
1746,59.8557
1744,59.7452
1742,59.7788
1740,59.6516
1738,59.5947
1736,59.5554
1734,59.4323
1732,59.2605
1730,59.1768
1728,59.02
1726,58.8628
1724,58.6425
1722,58.408
1720,58.2258
1718,58.0753
1716,57.8299
1714,57.5308
1712,57.2959
1710,57.033
1708,56.7086
1706,56.3984
1704,56.0403
1702,55.685
1700,55.3376
1698,54.8837
1696,54.5415
1694,54.0429
1692,53.6393
1690,53.0882
1688,52.6283
1686,52.1546
1684,51.561
1682,51.0375
1680,50.4798
1678,49.8236
1676,49.1602
1674,48.5206
1672,47.8121
1670,47.1204
1668,46.4275
1666,45.6176
1664,44.8655
1662,44.017
1660,43.2276
1658,42.3351
1656,41.5171
1654,40.6253
1652,39.6738
1650,38.7826
1648,37.816
1646,36.8314
1644,35.8468
1642,34.8082
1640,33.7963
1638,32.7449
1636,31.6534
1634,30.609
1632,29.5432
1630,28.4537
1628,27.4098
1626,26.3162
1624,25.2529
1622,24.2577
1620,23.2289
1618,22.179
1616,21.2355
1614,20.2633
1612,19.3778
1610,18.5028
1608,17.7209
1606,16.9409
1604,16.2701
1602,15.5927
1600,15.025
1598,14.4918
1596,14.1316
1594,13.764
1592,13.4541
1590,13.3026
1588,13.1318
1586,13.1536
1584,13.1628
1582,13.3289
1580,13.5003
1578,13.79
1576,14.2065
1574,14.7
1572,15.1693
1570,15.75
1568,16.4315
1566,17.1281
1564,17.8893
1562,18.7587
1560,19.6252
1558,20.4725
1556,21.4947
1554,22.4609
1552,23.4884
1550,24.5232
1548,25.5679
1546,26.6152
1544,27.7329
1542,28.8383
1540,29.9246
1538,30.9984
1536,32.0911
1534,33.1932
1532,34.2977
1530,35.3511
1528,36.4177
1526,37.5084
1524,38.4851
1522,39.5215
1520,40.5458
1518,41.5345
1516,42.5086
1514,43.4081
1512,44.2725
1510,45.1502
1508,46.0747
1506,46.9529
1504,47.7847
1502,48.5245
1500,49.3092
1498,50.0483
1496,50.8121
1494,51.4761
1492,52.102
1490,52.6846
1488,53.2774
1486,53.9178
1484,54.4528
1482,54.9928
1480,55.4337
1478,55.9369
1476,56.3894
1474,56.8123
1472,57.1684
1470,57.4346
1468,57.8343
1466,58.2013
1464,58.4745
1462,58.6171
1460,58.9114
1458,59.0508
1456,59.3053
1454,59.3953
1452,59.5454
1450,59.5986
1448,59.678
1446,59.7489
1444,59.7079
1442,59.6612
1440,59.6123
1438,59.5502
1436,59.3726
1434,59.2439
1432,59.057
1430,58.8432
1428,58.6292
1426,58.3534
1424,58.0586
1422,57.7101
1420,57.2967
1418,56.8718
1416,56.4586
1414,55.865
1412,55.3799
1410,54.8187
1408,54.2477
1406,53.4904
1404,52.8166
1402,52.0576
1400,51.2768
1398,50.3934
1396,49.5132
1394,48.5129
1392,47.4999
1390,46.5215
1388,45.2961
1386,44.2123
1384,43.0387
1382,41.685
1380,40.3215
1378,38.9372
1376,37.5903
1374,36.1811
1372,34.797
1370,33.2067
1368,31.6942
1366,30.1965
1364,28.6289
1362,27.0704
1360,25.5597
1358,24.1522
1356,22.6422
1354,21.3231
1352,20.044
1350,18.8556
1348,17.7956
1346,16.804
1344,16.0142
1342,15.4218
1340,14.8743
1338,14.5566
1336,14.3966
1334,14.408
1332,14.5766
1330,14.8536
1328,15.3312
1326,15.9337
1324,16.6796
1322,17.6064
1320,18.5456
1318,19.7305
1316,20.9088
1314,22.2157
1312,23.577
1310,25.0241
1308,26.4144
1306,27.9105
1304,29.441
1302,30.9602
1300,32.4026
1298,33.9564
1296,35.4573
1294,36.8273
1292,38.3188
1290,39.684
1288,41.0056
1286,42.3908
1284,43.6235
1282,44.9238
1280,46.0807
1278,47.2984
1276,48.3872
1274,49.4754
1272,50.4333
1270,51.3761
1268,52.2707
1266,53.217
1264,53.9404
1262,54.7313
1260,55.4647
1258,56.0618
1256,56.6359
1254,57.1903
1252,57.6788
1250,58.1446
1248,58.5246
1246,58.8502
1244,59.1148
1242,59.3953
1240,59.5303
1238,59.6526
1236,59.739
1234,59.7468
1232,59.6665
1230,59.5349
1228,59.3947
1226,59.1829
1224,58.8499
1222,58.5033
1220,57.9722
1218,57.4941
1216,56.9997
1214,56.3285
1212,55.6281
1210,54.7878
1208,53.8493
1206,52.8705
1204,51.8436
1202,50.6214
1200,49.3551
1198,47.8717
1196,46.3663
1194,44.7618
1192,43.081
1190,41.3705
1188,39.467
1186,37.5442
1184,35.5554
1182,33.5086
1180,31.4195
1178,29.3347
1176,27.23
1174,25.2669
1172,23.395
1170,21.5266
1168,19.9856
1166,18.5585
1164,17.3868
1162,16.4831
1160,15.8796
1158,15.5832
1156,15.5448
1154,15.8184
1152,16.4522
1150,17.2816
1148,18.3719
1146,19.6297
1144,21.1547
1142,22.8295
1140,24.5422
1138,26.4045
1136,28.3407
1134,30.269
1132,32.2799
1130,34.1813
1128,36.1231
1126,38.0091
1124,39.8091
1122,41.6295
1120,43.367
1118,44.991
1116,46.552
1114,47.9665
1112,49.3662
1110,50.7381
1108,51.8987
1106,53.0116
1104,54.0722
1102,55.0026
1100,55.8297
1098,56.5913
1096,57.2943
1094,57.8505
1092,58.3551
1090,58.751
1088,59.064
1086,59.2553
1084,59.3029
1082,59.4129
1080,59.2762
1078,59.1295
1076,58.8032
1074,58.3591
1072,57.8256
1070,57.0921
1068,56.2832
1066,55.3737
1064,54.3329
1062,53.0153
1060,51.6106
1058,49.9819
1056,48.2484
1054,46.2818
1052,44.1272
1050,41.8308
1048,39.3924
1046,36.833
1044,34.1916
1042,31.513
1040,28.8363
1038,26.2249
1036,23.8436
1034,21.6436
1032,19.868
1030,18.5038
1028,17.548
1026,17.1137
1024,17.1832
1022,17.7643
1020,18.7633
1018,20.1051
1016,21.9218
1014,23.9181
1012,26.114
1010,28.5169
1008,30.9453
1006,33.3351
1004,35.8159
1002,38.1639
1000,40.4624
998,42.7135
996,44.864
994,46.8547
992,48.6869
990,50.3252
988,51.8875
986,53.3146
984,54.5708
982,55.7584
980,56.7037
978,57.5439
976,58.2239
974,58.7624
972,59.1508
970,59.3509
968,59.4409
966,59.307
964,59.0419
962,58.6091
960,57.8899
958,57.001
956,55.8864
954,54.4962
952,52.902
950,51.0197
948,48.8304
946,46.3815
944,43.7079
942,40.7554
940,37.7333
938,34.5362
936,31.5019
934,28.5225
932,25.8759
930,23.6741
928,21.9809
926,20.8657
924,20.4347
922,20.5688
920,21.374
918,22.6609
916,24.4302
914,26.5191
912,28.8316
910,31.2631
908,33.8628
906,36.4428
904,38.8754
902,41.3988
900,43.6943
898,45.7765
896,47.7743
894,49.4759
892,50.9522
890,52.1827
888,53.2817
886,54.1547
884,54.7942
882,55.2125
880,55.3494
878,56.7318
876,56.9068
874,56.9632
872,56.0654
870,54.8552
868,53.4219
866,51.7465
864,49.8714
862,47.7625
860,45.5582
858,43.1681
856,40.732
854,38.353
852,36.1556
850,34.0052
848,32.4018
846,31.1225
844,30.2544
842,29.9104
840,29.9704
838,30.5703
836,31.6158
834,33
832,34.8096
830,36.5977
828,38.7105
826,41.0129
824,43.2081
822,45.4625
820,47.5154
818,49.3676
816,50.9475
814,52.13
812,53.285
810,53.7866
808,54.2748
806,53.9999
804,53.5106
802,52.5563
800,51.3428
798,50.7717
796,47.0182
794,42.5347
792,37.5109
790,32.2604
788,27.3312
786,23.3825
784,20.9661
782,20.4159
780,21.669
778,24.3875
776,28.1067
774,32.3888
772,36.8295
770,41.1809
768,45.2233
766,48.86
764,51.9968
762,54.621
760,56.6924
758,58.236
756,59.2086
754,59.5732
752,59.3122
750,58.3179
748,56.51
746,53.7747
744,49.9793
742,45.0881
740,39.2867
738,33.0543
736,27.3338
734,23.2338
732,21.6151
730,22.6157
728,25.7304
726,30.1579
724,35.1379
722,40.1141
720,44.7481
718,48.7859
716,52.1288
714,54.6806
712,56.4244
710,57.3084
708,57.2681
706,56.1846
704,53.939
702,50.3779
700,45.4328
698,39.297
696,32.7347
694,27.0602
692,23.6786
690,23.2924
688,25.6126
686,29.6771
684,34.5023
682,39.2948
680,43.5982
678,47.0841
676,49.6098
674,51.0549
672,51.344
670,50.3808
668,48.0833
666,44.4848
664,39.8037
662,34.6902
660,30.2548
658,27.5628
656,27.1496
654,28.7853
652,31.7318
650,35.1914
648,38.506
646,41.2382
644,43.1199
642,43.9822
640,43.7715
638,42.5269
636,40.4273
634,37.8448
632,35.3284
630,33.4574
628,32.6312
626,32.9205
624,34.0742
622,35.6809
620,37.3363
618,38.6863
616,39.5378
614,39.8122
612,39.5262
610,38.827
608,37.9359
606,37.1031
604,36.5475
602,36.3806
600,36.5801
598,37.0424
596,37.6075
594,38.1116
592,38.4746
590,38.6568
588,38.6394
586,38.5099
584,38.3443
582,38.2145
580,38.1812
578,38.2416
576,38.3833
574,38.5518
572,38.7225
570,38.8624
568,38.9561
566,39.0125
564,39.0505
562,39.0856
560,39.1381
558,39.2073
556,39.2899
554,39.3828
552,39.4732
550,39.5602
548,39.6446
546,39.7227
544,39.801
542,39.8694
540,39.9462
538,40.029
536,40.1106
534,40.1911
532,40.2873
530,40.352
528,40.4413
526,40.5251
524,40.6109
522,40.6951
520,40.7766
518,40.8591
516,40.9488
514,41.0346
512,41.124
510,41.2111
508,41.2979
506,41.3868
504,41.4781
502,41.5695
500,41.6579
498,41.7511
496,41.8453
494,41.9325
492,42.0249
490,42.1219
488,42.2184
486,42.3132
484,42.414
482,42.5103
480,42.611
478,42.7068
476,42.8132
474,42.9076
472,43.015
470,43.1183
468,43.2208
466,43.3273
464,43.4312
462,43.543
460,43.6442
458,43.7486
456,43.8598
454,43.9733
452,44.0861
450,44.208
448,44.3125
446,44.4327
444,44.5469
442,44.6557
440,44.7782
438,44.8991
436,45.0233
434,45.147
432,45.2725
430,45.3966
428,45.5295
426,45.6596
424,45.7925
422,45.9227
420,46.0584
418,46.1934
416,46.3334
414,46.4721
412,46.633
410,46.7562
408,46.9139
406,47.0554
404,47.1999
402,47.343
400,47.4929