File: Lab4/Perovskite_T_R.csv
Wavelength (nm),%T,%R
800,66.31987,6.26476
799,66.3329,6.17365
798,66.3668,6.0748
797,66.3867,5.9834
796,66.4179,5.89907
795,66.4402,5.80939
794,66.4459,5.72867
793,66.4552,5.64327
792,66.4646,5.56179
791,66.4678,5.4792
790,66.461,5.40721
789,66.4597,5.33843
788,66.4635,5.26425
787,66.453,5.19403
786,66.4459,5.12789
785,66.4439,5.07368
784,66.4018,5.02116
783,66.3939,4.96389
782,66.3712,4.91365
781,66.3217,4.86757
780,66.2944,4.83027
779,66.2438,4.79427
778,66.1947,4.76828
777,66.1504,4.73949
776,66.0904,4.72119
775,66.022,4.70651
774,65.944,4.6973
773,65.8724,4.69216
772,65.7894,4.7003
771,65.7091,4.70772
770,65.6077,4.7265
769,65.4964,4.74748
768,65.405,4.77489
767,65.2889,4.81252
766,65.1837,4.85457
765,65.049,4.9067
764,64.9254,4.96199
763,64.7965,5.02471
762,64.6518,5.09843
761,64.4935,5.17243
760,64.3425,5.25669
759,64.182,5.35138
758,64.0157,5.45
757,63.8549,5.55946
756,63.6841,5.66943
755,63.501,5.78672
754,63.3003,5.9107
753,63.1277,6.04705
752,62.9233,6.18211
751,62.7264,6.32173
750,62.5206,6.47038
749,62.3256,6.62303
748,62.1189,6.78608
747,61.8979,6.95842
746,61.6943,7.12323
745,61.468,7.30267
744,61.2529,7.46795
743,61.0388,7.65181
742,60.8088,7.82976
741,60.5946,8.00945
740,60.3842,8.2001
739,60.1483,8.38309
738,59.9365,8.56636
737,59.7241,8.74844
736,59.507,8.9398
735,59.2933,9.12184
734,59.0847,9.31286
733,58.8786,9.48767
732,58.6694,9.662
731,58.4714,9.83346
730,58.279,10.0084
729,58.0912,10.1712
728,57.9029,10.3205
727,57.7252,10.4701
726,57.5533,10.6226
725,57.3809,10.7567
724,57.2297,10.8804
723,57.0756,10.9951
722,56.9279,11.1015
721,56.7903,11.2108
720,56.6578,11.2926
719,56.5464,11.3674
718,56.4387,11.4267
717,56.3357,11.4895
716,56.2335,11.5278
715,56.148,11.5339
714,56.08,11.5597
713,56.0191,11.5559
712,55.9606,11.5364
711,55.9083,11.5162
710,55.8634,11.4686
709,55.8439,11.4066
708,55.8164,11.3275
707,55.8081,11.2332
706,55.809,11.1247
705,55.8097,11.0156
704,55.8202,10.8781
703,55.8391,10.7266
702,55.8631,10.56
701,55.8917,10.3812
700,55.9215,10.1905
699,55.9694,9.99964
698,56.0172,9.79684
697,56.0561,9.55681
696,56.1095,9.33565
695,56.1575,9.0787
694,56.1936,8.8306
693,56.2464,8.58684
692,56.2927,8.32893
691,56.3308,8.06421
690,56.361,7.802423
689,56.3831,7.54611
688,56.4018,7.28444
687,56.4191,7.02805
686,56.4049,6.77852
685,56.3963,6.53489
684,56.3704,6.3064
683,56.3246,6.08966
682,56.2685,5.87989
681,56.1918,5.69749
680,56.0993,5.52463
679,55.9839,5.37411
678,55.861,5.24376
677,55.6995,5.14119
676,55.5277,5.06016
675,55.3311,5.00086
674,55.1248,4.9691
673,54.8854,4.96594
672,54.6338,4.98739
671,54.3597,5.04042
670,54.0596,5.1236
669,53.7373,5.23568
668,53.4068,5.37183
667,53.0482,5.53445
666,52.6744,5.71753
665,52.2862,5.94041
664,51.8883,6.17596
663,51.4685,6.4375
662,51.03,6.71573
661,50.6005,7.01041
660,50.156,7.32978
659,49.6984,7.65365
658,49.2338,7.98712
657,48.7768,8.32415
656,48.3085,8.6634
655,47.8391,9.00476
654,47.3684,9.3458
653,46.9041,9.67605
652,46.4423,9.99723
651,45.9806,10.3108
650,45.5237,10.5873
649,45.0853,10.8697
648,44.6461,11.1089
647,44.2109,11.3222
646,43.7885,11.5044
645,43.37,11.654
644,42.9619,11.764
643,42.5648,11.8331
642,42.1702,11.8595
641,41.7745,11.843
640,41.3899,11.795
639,41.0099,11.6849
638,40.63,11.5252
637,40.2525,11.321
636,39.861,11.0691
635,39.4749,10.7772
634,39.0722,10.4455
633,38.6557,10.0774
632,38.2215,9.6749
631,37.7679,9.25953
630,37.2995,8.80662
629,36.7927,8.35552
628,36.2521,7.89652
627,35.6764,7.45535
626,35.055,7.01642
625,34.4172,6.61125
624,33.7235,6.23601
623,32.9868,5.89716
622,32.2134,5.61847
621,31.4016,5.40318
620,30.554,5.24887
619,29.6568,5.16082
618,28.7303,5.14348
617,27.7735,5.19872
616,26.7812,5.31997
615,25.7537,5.50802
614,24.6984,5.75175
613,23.6144,6.04172
612,22.5036,6.36598
611,21.3602,6.71836
610,20.1857,7.05927
609,18.9755,7.38832
608,17.7259,7.68629
607,16.4461,7.92649
606,15.11,8.10505
605,13.7348,8.20465
604,12.3279,8.235
603,10.8992,8.19265
602,9.4771,8.10209
601,8.06994,7.98233
600,6.72023,7.85824
599,5.47839,7.75281
598,4.35499,7.67592
597,3.38234,7.63293
596,2.57268,7.62073
595,1.92138,7.63689
594,1.42187,7.65429
593,1.04426,7.67403
592,0.771382,7.68727
591,0.578477,7.69498
590,0.44457,7.67872
589,0.353062,7.66307
588,0.29146,7.64077
587,0.250849,7.61837
586,0.225612,7.58352
585,0.210534,7.53941
584,0.20308,7.49707
583,0.200745,7.45362
582,0.202643,7.40701
581,0.207181,7.36411
580,0.213844,7.31816
579,0.221773,7.27351
578,0.230129,7.23202
577,0.238276,7.19216
576,0.246513,7.14752
575,0.254109,7.11666
574,0.260843,7.08026
573,0.266497,7.04772
572,0.270555,7.01681
571,0.274174,6.98352
570,0.27611,6.94576
569,0.277407,6.92519
568,0.276948,6.89687
567,0.275795,6.8627
566,0.273862,6.84234
565,0.271219,6.81724
564,0.26747,6.79187
563,0.263636,6.76958
562,0.258917,6.74588
561,0.253925,6.72483
560,0.248985,6.7045
559,0.243466,6.68679
558,0.237924,6.66721
557,0.232333,6.65243
556,0.226374,6.63438
555,0.220903,6.62072
554,0.215475,6.60652
553,0.209895,6.59472
552,0.204356,6.58297
551,0.199036,6.57349
550,0.193571,6.55834
549,0.188354,6.54955
548,0.183087,6.54315
547,0.178088,6.53784
546,0.173263,6.53367
545,0.168262,6.53171
544,0.163253,6.5297
543,0.158637,6.52848
542,0.153932,6.52857
541,0.149375,6.531
540,0.144702,6.53203
539,0.139865,6.53608
538,0.13542,6.54207
537,0.130925,6.54777
536,0.126355,6.5568
535,0.122186,6.56428
534,0.117591,6.57302
533,0.113404,6.58294
532,0.109023,6.59489
531,0.105112,6.60799
530,0.100729,6.62084
529,0.0965703,6.62705
528,0.0929877,6.64233
527,0.0889242,6.66651
526,0.0851475,6.68241
525,0.0814974,6.69872
524,0.0779446,6.71666
523,0.0748493,6.73392
522,0.0713922,6.75325
521,0.0683351,6.76412
520,0.065458,6.78311
519,0.0623495,6.80224
518,0.059619,6.83163
517,0.0570178,6.85231
516,0.0544262,6.87283
515,0.0519777,6.89185
514,0.0494158,6.90168
513,0.0475329,6.92126
512,0.0450611,6.94093
511,0.0429863,6.95922
510,0.0410086,6.97715
509,0.0393915,6.99527
508,0.0377007,7.01101
507,0.035975,7.02909
506,0.0342438,7.0442
505,0.0327157,7.0594
504,0.0311299,7.07413
503,0.02990843,7.08894
502,0.0285963,7.10111
501,0.0273712,7.11358
500,0.025641,7.12389
499,0.0249063,7.12646
498,0.0236063,7.14361
497,0.0225695,7.14391
496,0.0213998,7.15009
495,0.0205422,7.1565
494,0.0195802,7.16084
493,0.0187987,7.16404
492,0.0176476,7.16609
491,0.0170992,7.16685
490,0.0160417,7.16193
489,0.0154541,7.16316
488,0.0149846,7.15787
487,0.014163,7.15163
486,0.0138401,7.1435
485,0.0131866,7.13439
484,0.0123277,7.12313
483,0.01230127,7.11104
482,0.0116628,7.09702
481,0.0112272,7.0805
480,0.0109146,7.05505
479,0.0107182,7.04334
478,0.01027018,7.02151
477,0.0100131,6.9915
476,0.009778508,6.97498
475,0.009702086,6.94869
474,0.009193003,6.92117
473,0.008780026,6.89109
472,0.009050216,6.86096
471,0.00871951,6.82072
470,0.008303069,6.78704
469,0.008597555,6.75166
468,0.008405248,6.71676
467,0.008231387,6.68111
466,0.008275715,6.64713
465,0.008103925,6.61068
464,0.00814148,6.56393
463,0.008245312,6.52322
462,0.007862934,6.48557
461,0.007993637,6.44718
460,0.008026144,6.40722
459,0.007907193,6.3756
458,0.008169489,6.33697
457,0.008120017,6.2911
456,0.007771688,6.25426
455,0.007900067,6.21765
454,0.007891302,6.18012
453,0.008034714,6.14776
452,0.007823491,6.11236
451,0.007745061,6.08194
450,0.007955587,6.05276
449,0.007712076,6.02749
448,0.007809095,6.00194
447,0.007752903,5.97745
446,0.007930649,5.95572
445,0.00792984,5.93485
444,0.008041383,5.9162
443,0.008364501,5.90691
442,0.007952396,5.88825
441,0.008014319,5.87722
440,0.008012909,5.86964
439,0.00786983,5.86479
438,0.007588519,5.86104
437,0.007972826,5.86238
436,0.007687608,5.8643
435,0.007781118,5.86441
434,0.007525153,5.86905
433,0.007841621,5.87491
432,0.007715378,5.88122
431,0.00754088,5.88898
430,0.007416655,5.9006
429,0.007392248,5.9092
428,0.00711279,5.917
427,0.007635224,5.92658
426,0.007448744,5.93615
425,0.007253708,5.94467
424,0.007297677,5.94822
423,0.007149098,5.94821
422,0.006928759,5.95102
421,0.006932219,5.95478
420,0.006753521,5.95478
419,0.006467006,5.94933
418,0.006615139,5.93778
417,0.006318915,5.92735
416,0.006017772,5.90841
415,0.006141105,5.88941
414,0.006033456,5.87031
413,0.005899173,5.84296
412,0.00578633,5.81518
411,0.00560914,5.78548
410,0.005512551,5.75493
409,0.005006482,5.72133
408,0.005411341,5.69033
407,0.005159352,5.65926
406,0.004897627,5.62103
405,0.005142653,5.59534
404,0.00498696,5.57206
403,0.005062028,5.55065
402,0.00499967,5.53997
401,0.004973506,5.53422
400,0.004942981,5.53652
399,0.004752811,5.54749
398,0.004795785,5.56832
397,0.004691485,5.61058
396,0.004452449,5.65519
395,0.004815701,5.71571
394,0.00497053,5.79081
393,0.004932937,5.88223
392,0.004904988,5.98434
391,0.00459542,6.11009
390,0.004902706,6.23885
389,0.004826166,6.38367
388,0.004635325,6.54939
387,0.004727662,6.71957
386,0.004811987,6.89976
385,0.004523324,7.09289
384,0.004463362,7.29207
383,0.004428172,7.49871
382,0.00442972,7.71406
381,0.00433394,7.93306
380,0.004121802,8.16568
379,0.004283512,8.39171
378,0.004172412,8.61564
377,0.003935105,8.84114
376,0.003815797,9.06285
375,0.003185684,9.27323
374,0.003272478,9.48797
373,0.003071381,9.67018
372,0.002899359,9.83472
371,0.002287588,9.97952
370,0.002046728,10.1034
369,0.001642843,10.1966
368,0.001541394,10.2693
367,0.001253569,10.3025
366,0.00091713,10.3053
365,0.000711327,10.26791
364,0.000599529,10.2065
363,0.0006284,10.1016
362,0.000173069,9.96194
361,0.000309854,9.7814
360,0.000155207,9.56894
359,0.000141213,9.34176
358,2.22E-05,9.08011
357,2.87E-05,8.80834
356,0.000145582,8.50573
355,0.000202713,8.20796
354,0.000239148,7.90776
353,0.000186963,7.63177
352,7.92E-05,7.3566
351,0.00015307,7.10162
350,4.55E-05,6.89407